"pg3t_undoped_R.spc - RawData"
"Wavelength nm." "R%"
400,00 6,484
401,00 6,486
402,00 6,485
403,00 6,467
404,00 6,483
405,00 6,479
406,00 6,495
407,00 6,490
408,00 6,503
409,00 6,506
410,00 6,505
411,00 6,504
412,00 6,510
413,00 6,524
414,00 6,522
415,00 6,520
416,00 6,526
417,00 6,542
418,00 6,554
419,00 6,550
420,00 6,545
421,00 6,547
422,00 6,552
423,00 6,557
424,00 6,563
425,00 6,585
426,00 6,603
427,00 6,607
428,00 6,605
429,00 6,618
430,00 6,627
431,00 6,634
432,00 6,658
433,00 6,673
434,00 6,687
435,00 6,683
436,00 6,707
437,00 6,710
438,00 6,723
439,00 6,726
440,00 6,752
441,00 6,768
442,00 6,791
443,00 6,811
444,00 6,826
445,00 6,855
446,00 6,874
447,00 6,901
448,00 6,928
449,00 6,945
450,00 6,965
451,00 6,972
452,00 7,010
453,00 7,035
454,00 7,059
455,00 7,072
456,00 7,107
457,00 7,147
458,00 7,178
459,00 7,201
460,00 7,227
461,00 7,260
462,00 7,296
463,00 7,336
464,00 7,364
465,00 7,389
466,00 7,420
467,00 7,466
468,00 7,507
469,00 7,538
470,00 7,575
471,00 7,619
472,00 7,669
473,00 7,717
474,00 7,775
475,00 7,829
476,00 7,878
477,00 7,931
478,00 7,985
479,00 8,045
480,00 8,097
481,00 8,156
482,00 8,210
483,00 8,264
484,00 8,316
485,00 8,377
486,00 8,430
487,00 8,493
488,00 8,549
489,00 8,611
490,00 8,677
491,00 8,734
492,00 8,803
493,00 8,857
494,00 8,924
495,00 8,984
496,00 9,045
497,00 9,112
498,00 9,194
499,00 9,270
500,00 9,335
501,00 9,390
502,00 9,460
503,00 9,558
504,00 9,637
505,00 9,723
506,00 9,773
507,00 9,853
508,00 9,925
509,00 10,013
510,00 10,096
511,00 10,172
512,00 10,252
513,00 10,313
514,00 10,393
515,00 10,469
516,00 10,568
517,00 10,652
518,00 10,729
519,00 10,811
520,00 10,876
521,00 10,963
522,00 11,010
523,00 11,088
524,00 11,164
525,00 11,265
526,00 11,354
527,00 11,431
528,00 11,511
529,00 11,605
530,00 11,687
531,00 11,786
532,00 11,864
533,00 11,969
534,00 12,044
535,00 12,136
536,00 12,218
537,00 12,312
538,00 12,392
539,00 12,469
540,00 12,546
541,00 12,627
542,00 12,704
543,00 12,780
544,00 12,867
545,00 12,943
546,00 13,043
547,00 13,112
548,00 13,206
549,00 13,290
550,00 13,378
551,00 13,458
552,00 13,521
553,00 13,610
554,00 13,685
555,00 13,755
556,00 13,820
557,00 13,896
558,00 13,995
559,00 14,081
560,00 14,170
561,00 14,241
562,00 14,298
563,00 14,344
564,00 14,411
565,00 14,490
566,00 14,565
567,00 14,615
568,00 14,678
569,00 14,744
570,00 14,822
571,00 14,879
572,00 14,941
573,00 15,009
574,00 15,080
575,00 15,143
576,00 15,203
577,00 15,288
578,00 15,362
579,00 15,438
580,00 15,489
581,00 15,573
582,00 15,647
583,00 15,727
584,00 15,797
585,00 15,874
586,00 15,976
587,00 16,060
588,00 16,132
589,00 16,196
590,00 16,272
591,00 16,353
592,00 16,422
593,00 16,482
594,00 16,561
595,00 16,625
596,00 16,695
597,00 16,749
598,00 16,820
599,00 16,917
600,00 16,988
601,00 17,056
602,00 17,105
603,00 17,168
604,00 17,229
605,00 17,286
606,00 17,329
607,00 17,354
608,00 17,380
609,00 17,431
610,00 17,486
611,00 17,544
612,00 17,582
613,00 17,627
614,00 17,668
615,00 17,708
616,00 17,732
617,00 17,758
618,00 17,781
619,00 17,815
620,00 17,843
621,00 17,865
622,00 17,891
623,00 17,906
624,00 17,924
625,00 17,958
626,00 17,988
627,00 18,026
628,00 18,053
629,00 18,091
630,00 18,124
631,00 18,168
632,00 18,183
633,00 18,212
634,00 18,215
635,00 18,257
636,00 18,253
637,00 18,282
638,00 18,304
639,00 18,371
640,00 18,420
641,00 18,445
642,00 18,492
643,00 18,509
644,00 18,562
645,00 18,624
646,00 18,702
647,00 18,762
648,00 18,800
649,00 18,845
650,00 18,901
651,00 18,953
652,00 19,018
653,00 19,094
654,00 19,160
655,00 19,225
656,00 19,261
657,00 19,320
658,00 19,383
659,00 19,443
660,00 19,493
661,00 19,530
662,00 19,575
663,00 19,630
664,00 19,679
665,00 19,734
666,00 19,789
667,00 19,849
668,00 19,921
669,00 19,962
670,00 20,000
671,00 20,032
672,00 20,107
673,00 20,184
674,00 20,227
675,00 20,243
676,00 20,216
677,00 20,193
678,00 20,208
679,00 20,247
680,00 20,263
681,00 20,243
682,00 20,198
683,00 20,187
684,00 20,196
685,00 20,200
686,00 20,160
687,00 20,057
688,00 19,974
689,00 19,916
690,00 19,858
691,00 19,767
692,00 19,703
693,00 19,609
694,00 19,563
695,00 19,458
696,00 19,374
697,00 19,258
698,00 19,147
699,00 19,011
700,00 18,901
