"pg3t_doped_R.spc - RawData"
"Wavelength nm." "R%"
400,00 6,076
401,00 6,040
402,00 6,018
403,00 5,984
404,00 5,965
405,00 5,927
406,00 5,896
407,00 5,866
408,00 5,847
409,00 5,814
410,00 5,794
411,00 5,759
412,00 5,740
413,00 5,711
414,00 5,697
415,00 5,676
416,00 5,664
417,00 5,643
418,00 5,615
419,00 5,584
420,00 5,557
421,00 5,549
422,00 5,526
423,00 5,505
424,00 5,476
425,00 5,464
426,00 5,447
427,00 5,421
428,00 5,393
429,00 5,366
430,00 5,349
431,00 5,334
432,00 5,317
433,00 5,302
434,00 5,284
435,00 5,267
436,00 5,263
437,00 5,251
438,00 5,244
439,00 5,214
440,00 5,197
441,00 5,176
442,00 5,169
443,00 5,164
444,00 5,156
445,00 5,147
446,00 5,135
447,00 5,134
448,00 5,120
449,00 5,111
450,00 5,108
451,00 5,118
452,00 5,122
453,00 5,114
454,00 5,108
455,00 5,110
456,00 5,106
457,00 5,104
458,00 5,090
459,00 5,079
460,00 5,078
461,00 5,074
462,00 5,093
463,00 5,095
464,00 5,099
465,00 5,093
466,00 5,095
467,00 5,109
468,00 5,118
469,00 5,130
470,00 5,139
471,00 5,149
472,00 5,162
473,00 5,173
474,00 5,187
475,00 5,200
476,00 5,216
477,00 5,231
478,00 5,253
479,00 5,268
480,00 5,284
481,00 5,295
482,00 5,320
483,00 5,341
484,00 5,355
485,00 5,374
486,00 5,384
487,00 5,409
488,00 5,425
489,00 5,455
490,00 5,477
491,00 5,499
492,00 5,520
493,00 5,552
494,00 5,580
495,00 5,617
496,00 5,635
497,00 5,664
498,00 5,694
499,00 5,737
500,00 5,765
501,00 5,784
502,00 5,815
503,00 5,860
504,00 5,895
505,00 5,931
506,00 5,969
507,00 6,017
508,00 6,053
509,00 6,085
510,00 6,121
511,00 6,165
512,00 6,207
513,00 6,246
514,00 6,288
515,00 6,337
516,00 6,401
517,00 6,450
518,00 6,502
519,00 6,536
520,00 6,588
521,00 6,640
522,00 6,687
523,00 6,730
524,00 6,783
525,00 6,843
526,00 6,896
527,00 6,946
528,00 7,002
529,00 7,073
530,00 7,138
531,00 7,202
532,00 7,270
533,00 7,330
534,00 7,383
535,00 7,437
536,00 7,498
537,00 7,566
538,00 7,614
539,00 7,684
540,00 7,744
541,00 7,821
542,00 7,883
543,00 7,940
544,00 8,008
545,00 8,070
546,00 8,143
547,00 8,202
548,00 8,268
549,00 8,341
550,00 8,411
551,00 8,484
552,00 8,556
553,00 8,625
554,00 8,696
555,00 8,747
556,00 8,815
557,00 8,877
558,00 8,965
559,00 9,026
560,00 9,095
561,00 9,150
562,00 9,217
563,00 9,276
564,00 9,341
565,00 9,403
566,00 9,475
567,00 9,538
568,00 9,612
569,00 9,664
570,00 9,734
571,00 9,801
572,00 9,874
573,00 9,940
574,00 10,003
575,00 10,087
576,00 10,155
577,00 10,236
578,00 10,298
579,00 10,380
580,00 10,449
581,00 10,525
582,00 10,598
583,00 10,661
584,00 10,728
585,00 10,791
586,00 10,860
587,00 10,928
588,00 10,999
589,00 11,080
590,00 11,143
591,00 11,218
592,00 11,278
593,00 11,346
594,00 11,405
595,00 11,474
596,00 11,541
597,00 11,614
598,00 11,675
599,00 11,747
600,00 11,805
601,00 11,870
602,00 11,923
603,00 11,973
604,00 12,035
605,00 12,091
606,00 12,142
607,00 12,185
608,00 12,232
609,00 12,278
610,00 12,319
611,00 12,374
612,00 12,436
613,00 12,490
614,00 12,540
615,00 12,578
616,00 12,631
617,00 12,674
618,00 12,725
619,00 12,762
620,00 12,826
621,00 12,876
622,00 12,936
623,00 12,956
624,00 12,998
625,00 13,041
626,00 13,109
627,00 13,156
628,00 13,207
629,00 13,244
630,00 13,297
631,00 13,336
632,00 13,384
633,00 13,437
634,00 13,491
635,00 13,522
636,00 13,540
637,00 13,587
638,00 13,638
639,00 13,698
640,00 13,733
641,00 13,803
642,00 13,852
643,00 13,916
644,00 13,951
645,00 13,999
646,00 14,037
647,00 14,078
648,00 14,150
649,00 14,200
650,00 14,244
651,00 14,260
652,00 14,293
653,00 14,345
654,00 14,379
655,00 14,404
656,00 14,407
657,00 14,435
658,00 14,459
659,00 14,498
660,00 14,507
661,00 14,523
662,00 14,526
663,00 14,535
664,00 14,560
665,00 14,576
666,00 14,593
667,00 14,604
668,00 14,608
669,00 14,625
670,00 14,629
671,00 14,636
672,00 14,633
673,00 14,632
674,00 14,624
675,00 14,612
676,00 14,577
677,00 14,530
678,00 14,491
679,00 14,466
680,00 14,455
681,00 14,450
682,00 14,415
683,00 14,392
684,00 14,334
685,00 14,318
686,00 14,251
687,00 14,222
688,00 14,157
689,00 14,121
690,00 14,047
691,00 13,985
692,00 13,945
693,00 13,898
694,00 13,863
695,00 13,810
696,00 13,737
697,00 13,673
698,00 13,614
699,00 13,589
700,00 13,533
