"T_PEDOT_3dots.spc - RawData"
"Wavelength nm." "T%"
400,00 77,761
401,00 77,810
402,00 77,788
403,00 77,749
404,00 77,819
405,00 77,762
406,00 77,800
407,00 77,790
408,00 77,890
409,00 77,946
410,00 77,929
411,00 77,911
412,00 77,977
413,00 78,032
414,00 78,103
415,00 78,104
416,00 78,107
417,00 78,079
418,00 78,128
419,00 78,122
420,00 78,198
421,00 78,136
422,00 78,134
423,00 78,076
424,00 78,087
425,00 78,105
426,00 78,113
427,00 78,144
428,00 78,121
429,00 78,195
430,00 78,144
431,00 78,157
432,00 78,065
433,00 78,124
434,00 78,115
435,00 78,162
436,00 78,141
437,00 78,112
438,00 78,101
439,00 78,125
440,00 78,174
441,00 78,120
442,00 78,047
443,00 77,983
444,00 77,966
445,00 77,903
446,00 77,903
447,00 77,920
448,00 77,893
449,00 77,848
450,00 77,758
451,00 77,798
452,00 77,742
453,00 77,750
454,00 77,671
455,00 77,654
456,00 77,603
457,00 77,611
458,00 77,599
459,00 77,567
460,00 77,519
461,00 77,484
462,00 77,462
463,00 77,397
464,00 77,350
465,00 77,298
466,00 77,264
467,00 77,217
468,00 77,134
469,00 77,086
470,00 77,044
471,00 77,020
472,00 76,984
473,00 76,925
474,00 76,889
475,00 76,821
476,00 76,815
477,00 76,760
478,00 76,699
479,00 76,600
480,00 76,532
481,00 76,493
482,00 76,454
483,00 76,405
484,00 76,340
485,00 76,241
486,00 76,128
487,00 76,084
488,00 76,028
489,00 76,025
490,00 75,987
491,00 75,967
492,00 75,883
493,00 75,793
494,00 75,731
495,00 75,720
496,00 75,690
497,00 75,646
498,00 75,582
499,00 75,504
500,00 75,382
501,00 75,303
502,00 75,217
503,00 75,212
504,00 75,094
505,00 75,054
506,00 74,943
507,00 74,930
508,00 74,855
509,00 74,827
510,00 74,754
511,00 74,685
512,00 74,587
513,00 74,537
514,00 74,467
515,00 74,451
516,00 74,382
517,00 74,334
518,00 74,245
519,00 74,149
520,00 74,028
521,00 73,952
522,00 73,890
523,00 73,869
524,00 73,798
525,00 73,724
526,00 73,673
527,00 73,626
528,00 73,522
529,00 73,458
530,00 73,365
531,00 73,325
532,00 73,191
533,00 73,110
534,00 73,043
535,00 73,006
536,00 72,916
537,00 72,800
538,00 72,671
539,00 72,621
540,00 72,582
541,00 72,511
542,00 72,443
543,00 72,386
544,00 72,369
545,00 72,269
546,00 72,144
547,00 72,025
548,00 71,951
549,00 71,933
550,00 71,891
551,00 71,816
552,00 71,717
553,00 71,608
554,00 71,525
555,00 71,423
556,00 71,354
557,00 71,284
558,00 71,218
559,00 71,147
560,00 71,104
561,00 71,048
562,00 70,978
563,00 70,876
564,00 70,795
565,00 70,757
566,00 70,677
567,00 70,596
568,00 70,468
569,00 70,403
570,00 70,318
571,00 70,231
572,00 70,123
573,00 70,026
574,00 69,960
575,00 69,885
576,00 69,821
577,00 69,724
578,00 69,614
579,00 69,502
580,00 69,411
581,00 69,350
582,00 69,258
583,00 69,169
584,00 69,100
585,00 69,054
586,00 68,979
587,00 68,882
588,00 68,786
589,00 68,718
590,00 68,643
591,00 68,611
592,00 68,560
593,00 68,488
594,00 68,368
595,00 68,264
596,00 68,187
597,00 68,098
598,00 68,032
599,00 67,972
600,00 67,910
601,00 67,801
602,00 67,658
603,00 67,571
604,00 67,511
605,00 67,458
606,00 67,404
607,00 67,306
608,00 67,199
609,00 67,074
610,00 66,988
611,00 66,954
612,00 66,878
613,00 66,754
614,00 66,631
615,00 66,500
616,00 66,436
617,00 66,371
618,00 66,343
619,00 66,213
620,00 66,150
621,00 66,041
622,00 66,011
623,00 65,849
624,00 65,814
625,00 65,736
626,00 65,720
627,00 65,623
628,00 65,571
629,00 65,475
630,00 65,381
631,00 65,257
632,00 65,141
633,00 65,070
634,00 64,983
635,00 64,913
636,00 64,804
637,00 64,725
638,00 64,663
639,00 64,599
640,00 64,554
641,00 64,451
642,00 64,371
643,00 64,264
644,00 64,205
645,00 64,113
646,00 64,040
647,00 63,903
648,00 63,831
649,00 63,735
650,00 63,709
651,00 63,663
652,00 63,597
653,00 63,497
654,00 63,342
655,00 63,232
656,00 63,141
657,00 63,066
658,00 62,987
659,00 62,896
660,00 62,806
661,00 62,750
662,00 62,668
663,00 62,606
664,00 62,519
665,00 62,486
666,00 62,445
667,00 62,406
668,00 62,343
669,00 62,291
670,00 62,201
671,00 62,118
672,00 61,988
673,00 61,903
674,00 61,800
675,00 61,770
676,00 61,725
677,00 61,708
678,00 61,618
679,00 61,492
680,00 61,393
681,00 61,331
682,00 61,276
683,00 61,178
684,00 61,071
685,00 61,023
686,00 60,955
687,00 60,856
688,00 60,758
689,00 60,665
690,00 60,616
691,00 60,593
692,00 60,587
693,00 60,538
694,00 60,430
695,00 60,375
696,00 60,360
697,00 60,340
698,00 60,215
699,00 60,050
700,00 59,943
