"T_PEDOT.spc - RawData"
"Wavelength nm." "T%"
400,00 77,023
401,00 77,024
402,00 77,030
403,00 77,072
404,00 77,141
405,00 77,079
406,00 77,092
407,00 77,137
408,00 77,188
409,00 77,220
410,00 77,180
411,00 77,198
412,00 77,240
413,00 77,294
414,00 77,251
415,00 77,279
416,00 77,290
417,00 77,319
418,00 77,354
419,00 77,337
420,00 77,421
421,00 77,365
422,00 77,408
423,00 77,354
424,00 77,388
425,00 77,361
426,00 77,341
427,00 77,346
428,00 77,351
429,00 77,469
430,00 77,419
431,00 77,392
432,00 77,227
433,00 77,263
434,00 77,283
435,00 77,373
436,00 77,360
437,00 77,305
438,00 77,283
439,00 77,218
440,00 77,236
441,00 77,203
442,00 77,203
443,00 77,147
444,00 77,102
445,00 77,094
446,00 77,093
447,00 77,120
448,00 77,069
449,00 76,981
450,00 76,915
451,00 76,909
452,00 76,927
453,00 76,935
454,00 76,900
455,00 76,860
456,00 76,787
457,00 76,748
458,00 76,722
459,00 76,682
460,00 76,629
461,00 76,593
462,00 76,545
463,00 76,499
464,00 76,452
465,00 76,408
466,00 76,366
467,00 76,262
468,00 76,207
469,00 76,138
470,00 76,158
471,00 76,095
472,00 76,049
473,00 75,987
474,00 75,915
475,00 75,863
476,00 75,826
477,00 75,788
478,00 75,696
479,00 75,614
480,00 75,551
481,00 75,490
482,00 75,429
483,00 75,370
484,00 75,369
485,00 75,289
486,00 75,227
487,00 75,135
488,00 75,085
489,00 75,031
490,00 74,976
491,00 74,930
492,00 74,852
493,00 74,790
494,00 74,712
495,00 74,677
496,00 74,614
497,00 74,512
498,00 74,453
499,00 74,314
500,00 74,238
501,00 74,143
502,00 74,128
503,00 74,110
504,00 74,004
505,00 73,944
506,00 73,822
507,00 73,788
508,00 73,701
509,00 73,676
510,00 73,611
511,00 73,549
512,00 73,414
513,00 73,352
514,00 73,253
515,00 73,260
516,00 73,150
517,00 73,065
518,00 72,964
519,00 72,913
520,00 72,843
521,00 72,777
522,00 72,653
523,00 72,642
524,00 72,575
525,00 72,527
526,00 72,422
527,00 72,328
528,00 72,234
529,00 72,172
530,00 72,072
531,00 72,025
532,00 71,924
533,00 71,851
534,00 71,788
535,00 71,719
536,00 71,653
537,00 71,554
538,00 71,395
539,00 71,333
540,00 71,295
541,00 71,263
542,00 71,169
543,00 71,061
544,00 71,009
545,00 70,930
546,00 70,807
547,00 70,726
548,00 70,654
549,00 70,651
550,00 70,576
551,00 70,487
552,00 70,390
553,00 70,309
554,00 70,251
555,00 70,192
556,00 70,124
557,00 69,981
558,00 69,828
559,00 69,726
560,00 69,683
561,00 69,632
562,00 69,570
563,00 69,493
564,00 69,463
565,00 69,409
566,00 69,364
567,00 69,285
568,00 69,203
569,00 69,097
570,00 68,994
571,00 68,893
572,00 68,818
573,00 68,732
574,00 68,663
575,00 68,599
576,00 68,535
577,00 68,478
578,00 68,401
579,00 68,291
580,00 68,181
581,00 68,110
582,00 68,049
583,00 67,974
584,00 67,897
585,00 67,828
586,00 67,714
587,00 67,601
588,00 67,505
589,00 67,434
590,00 67,372
591,00 67,307
592,00 67,227
593,00 67,164
594,00 67,058
595,00 67,014
596,00 66,920
597,00 66,832
598,00 66,698
599,00 66,577
600,00 66,510
601,00 66,454
602,00 66,390
603,00 66,321
604,00 66,225
605,00 66,137
606,00 66,068
607,00 65,980
608,00 65,874
609,00 65,745
610,00 65,677
611,00 65,659
612,00 65,633
613,00 65,528
614,00 65,435
615,00 65,305
616,00 65,243
617,00 65,152
618,00 65,095
619,00 64,994
620,00 64,921
621,00 64,814
622,00 64,743
623,00 64,632
624,00 64,564
625,00 64,533
626,00 64,471
627,00 64,402
628,00 64,335
629,00 64,259
630,00 64,148
631,00 64,049
632,00 63,931
633,00 63,916
634,00 63,774
635,00 63,726
636,00 63,614
637,00 63,567
638,00 63,467
639,00 63,377
640,00 63,324
641,00 63,262
642,00 63,201
643,00 63,102
644,00 62,971
645,00 62,869
646,00 62,789
647,00 62,759
648,00 62,690
649,00 62,620
650,00 62,577
651,00 62,497
652,00 62,415
653,00 62,279
654,00 62,200
655,00 62,067
656,00 62,020
657,00 61,937
658,00 61,885
659,00 61,784
660,00 61,660
661,00 61,611
662,00 61,549
663,00 61,544
664,00 61,472
665,00 61,410
666,00 61,356
667,00 61,303
668,00 61,245
669,00 61,165
670,00 61,054
671,00 60,968
672,00 60,834
673,00 60,788
674,00 60,669
675,00 60,630
676,00 60,596
677,00 60,569
678,00 60,460
679,00 60,300
680,00 60,213
681,00 60,144
682,00 60,128
683,00 60,008
684,00 59,897
685,00 59,771
686,00 59,738
687,00 59,698
688,00 59,619
689,00 59,544
690,00 59,521
691,00 59,528
692,00 59,458
693,00 59,328
694,00 59,200
695,00 59,177
696,00 59,228
697,00 59,194
698,00 59,071
699,00 58,872
700,00 58,766
