"T_pg3t_doped.spc - RawData"
"Wavelength nm." "T%"
400,00 78,915
401,00 78,933
402,00 78,938
403,00 78,906
404,00 78,883
405,00 78,820
406,00 78,884
407,00 78,907
408,00 78,869
409,00 78,800
410,00 78,722
411,00 78,718
412,00 78,707
413,00 78,631
414,00 78,560
415,00 78,513
416,00 78,480
417,00 78,379
418,00 78,349
419,00 78,269
420,00 78,261
421,00 78,145
422,00 78,084
423,00 77,984
424,00 77,923
425,00 77,864
426,00 77,817
427,00 77,754
428,00 77,634
429,00 77,578
430,00 77,441
431,00 77,349
432,00 77,175
433,00 77,121
434,00 77,024
435,00 76,961
436,00 76,867
437,00 76,768
438,00 76,689
439,00 76,595
440,00 76,558
441,00 76,443
442,00 76,325
443,00 76,171
444,00 76,035
445,00 75,850
446,00 75,746
447,00 75,656
448,00 75,583
449,00 75,429
450,00 75,251
451,00 75,150
452,00 75,011
453,00 74,923
454,00 74,762
455,00 74,628
456,00 74,488
457,00 74,381
458,00 74,274
459,00 74,148
460,00 74,001
461,00 73,848
462,00 73,708
463,00 73,544
464,00 73,410
465,00 73,269
466,00 73,153
467,00 73,022
468,00 72,882
469,00 72,720
470,00 72,621
471,00 72,507
472,00 72,367
473,00 72,184
474,00 72,041
475,00 71,869
476,00 71,726
477,00 71,527
478,00 71,366
479,00 71,203
480,00 71,055
481,00 70,919
482,00 70,756
483,00 70,561
484,00 70,386
485,00 70,179
486,00 70,009
487,00 69,819
488,00 69,685
489,00 69,544
490,00 69,411
491,00 69,218
492,00 69,029
493,00 68,836
494,00 68,681
495,00 68,525
496,00 68,378
497,00 68,206
498,00 68,044
499,00 67,845
500,00 67,609
501,00 67,425
502,00 67,234
503,00 67,052
504,00 66,822
505,00 66,641
506,00 66,476
507,00 66,286
508,00 66,055
509,00 65,854
510,00 65,667
511,00 65,479
512,00 65,230
513,00 65,040
514,00 64,838
515,00 64,700
516,00 64,470
517,00 64,291
518,00 64,105
519,00 63,930
520,00 63,680
521,00 63,489
522,00 63,249
523,00 63,116
524,00 62,863
525,00 62,684
526,00 62,473
527,00 62,292
528,00 62,056
529,00 61,863
530,00 61,627
531,00 61,446
532,00 61,188
533,00 60,972
534,00 60,760
535,00 60,595
536,00 60,406
537,00 60,204
538,00 59,952
539,00 59,762
540,00 59,556
541,00 59,366
542,00 59,169
543,00 59,022
544,00 58,872
545,00 58,667
546,00 58,475
547,00 58,255
548,00 58,104
549,00 57,932
550,00 57,802
551,00 57,616
552,00 57,388
553,00 57,178
554,00 56,990
555,00 56,849
556,00 56,684
557,00 56,527
558,00 56,338
559,00 56,136
560,00 55,979
561,00 55,798
562,00 55,689
563,00 55,541
564,00 55,435
565,00 55,271
566,00 55,110
567,00 54,978
568,00 54,851
569,00 54,716
570,00 54,539
571,00 54,360
572,00 54,236
573,00 54,096
574,00 54,002
575,00 53,875
576,00 53,769
577,00 53,659
578,00 53,524
579,00 53,387
580,00 53,251
581,00 53,121
582,00 53,008
583,00 52,866
584,00 52,788
585,00 52,689
586,00 52,571
587,00 52,445
588,00 52,336
589,00 52,252
590,00 52,158
591,00 52,101
592,00 52,044
593,00 51,990
594,00 51,900
595,00 51,864
596,00 51,762
597,00 51,702
598,00 51,625
599,00 51,592
600,00 51,583
601,00 51,544
602,00 51,496
603,00 51,449
604,00 51,389
605,00 51,399
606,00 51,381
607,00 51,395
608,00 51,352
609,00 51,314
610,00 51,289
611,00 51,296
612,00 51,311
613,00 51,295
614,00 51,286
615,00 51,259
616,00 51,263
617,00 51,238
618,00 51,246
619,00 51,231
620,00 51,270
621,00 51,258
622,00 51,322
623,00 51,308
624,00 51,363
625,00 51,370
626,00 51,409
627,00 51,427
628,00 51,447
629,00 51,473
630,00 51,477
631,00 51,511
632,00 51,539
633,00 51,584
634,00 51,603
635,00 51,615
636,00 51,643
637,00 51,658
638,00 51,696
639,00 51,735
640,00 51,785
641,00 51,830
642,00 51,911
643,00 51,968
644,00 52,046
645,00 52,066
646,00 52,139
647,00 52,204
648,00 52,322
649,00 52,422
650,00 52,561
651,00 52,641
652,00 52,729
653,00 52,790
654,00 52,909
655,00 53,028
656,00 53,177
657,00 53,341
658,00 53,508
659,00 53,630
660,00 53,728
661,00 53,875
662,00 54,057
663,00 54,234
664,00 54,432
665,00 54,621
666,00 54,834
667,00 55,005
668,00 55,218
669,00 55,452
670,00 55,686
671,00 55,920
672,00 56,173
673,00 56,446
674,00 56,686
675,00 56,870
676,00 57,101
677,00 57,394
678,00 57,710
679,00 57,981
680,00 58,244
681,00 58,483
682,00 58,723
683,00 58,932
684,00 59,174
685,00 59,431
686,00 59,682
687,00 59,921
688,00 60,154
689,00 60,430
690,00 60,720
691,00 60,968
692,00 61,223
693,00 61,445
694,00 61,651
695,00 61,932
696,00 62,193
697,00 62,492
698,00 62,662
699,00 62,842
700,00 63,028
