"T_pg3t_undoped.spc - RawData"
"Wavelength nm." "T%"
400,00 83,405
401,00 83,281
402,00 83,180
403,00 83,173
404,00 83,168
405,00 82,997
406,00 82,904
407,00 82,791
408,00 82,797
409,00 82,712
410,00 82,641
411,00 82,566
412,00 82,487
413,00 82,432
414,00 82,283
415,00 82,176
416,00 82,061
417,00 82,031
418,00 81,977
419,00 81,880
420,00 81,776
421,00 81,628
422,00 81,516
423,00 81,354
424,00 81,270
425,00 81,178
426,00 81,051
427,00 80,943
428,00 80,854
429,00 80,828
430,00 80,693
431,00 80,510
432,00 80,255
433,00 80,158
434,00 80,076
435,00 80,041
436,00 79,936
437,00 79,764
438,00 79,622
439,00 79,500
440,00 79,398
441,00 79,259
442,00 79,070
443,00 78,908
444,00 78,774
445,00 78,607
446,00 78,483
447,00 78,352
448,00 78,203
449,00 77,992
450,00 77,813
451,00 77,673
452,00 77,483
453,00 77,333
454,00 77,154
455,00 77,058
456,00 76,877
457,00 76,720
458,00 76,551
459,00 76,371
460,00 76,185
461,00 75,993
462,00 75,835
463,00 75,654
464,00 75,496
465,00 75,319
466,00 75,149
467,00 74,912
468,00 74,721
469,00 74,558
470,00 74,449
471,00 74,270
472,00 74,097
473,00 73,874
474,00 73,698
475,00 73,494
476,00 73,324
477,00 73,097
478,00 72,827
479,00 72,615
480,00 72,423
481,00 72,268
482,00 72,068
483,00 71,843
484,00 71,616
485,00 71,382
486,00 71,194
487,00 71,002
488,00 70,809
489,00 70,597
490,00 70,394
491,00 70,165
492,00 69,949
493,00 69,724
494,00 69,531
495,00 69,302
496,00 69,086
497,00 68,874
498,00 68,653
499,00 68,415
500,00 68,134
501,00 67,948
502,00 67,740
503,00 67,549
504,00 67,252
505,00 67,021
506,00 66,781
507,00 66,553
508,00 66,332
509,00 66,128
510,00 65,919
511,00 65,703
512,00 65,441
513,00 65,251
514,00 65,028
515,00 64,842
516,00 64,599
517,00 64,358
518,00 64,141
519,00 63,950
520,00 63,729
521,00 63,521
522,00 63,284
523,00 63,079
524,00 62,850
525,00 62,639
526,00 62,461
527,00 62,232
528,00 61,976
529,00 61,735
530,00 61,534
531,00 61,362
532,00 61,153
533,00 60,934
534,00 60,749
535,00 60,558
536,00 60,366
537,00 60,123
538,00 59,884
539,00 59,694
540,00 59,535
541,00 59,350
542,00 59,140
543,00 58,925
544,00 58,763
545,00 58,585
546,00 58,428
547,00 58,251
548,00 58,083
549,00 57,938
550,00 57,781
551,00 57,635
552,00 57,423
553,00 57,245
554,00 57,075
555,00 56,953
556,00 56,785
557,00 56,592
558,00 56,407
559,00 56,235
560,00 56,119
561,00 55,990
562,00 55,876
563,00 55,720
564,00 55,572
565,00 55,429
566,00 55,291
567,00 55,143
568,00 55,025
569,00 54,899
570,00 54,780
571,00 54,620
572,00 54,519
573,00 54,409
574,00 54,360
575,00 54,288
576,00 54,213
577,00 54,146
578,00 54,056
579,00 53,957
580,00 53,838
581,00 53,727
582,00 53,639
583,00 53,531
584,00 53,441
585,00 53,349
586,00 53,239
587,00 53,134
588,00 53,016
589,00 52,925
590,00 52,830
591,00 52,778
592,00 52,733
593,00 52,659
594,00 52,572
595,00 52,476
596,00 52,412
597,00 52,366
598,00 52,333
599,00 52,303
600,00 52,266
601,00 52,247
602,00 52,200
603,00 52,190
604,00 52,160
605,00 52,165
606,00 52,141
607,00 52,115
608,00 52,099
609,00 52,102
610,00 52,145
611,00 52,170
612,00 52,192
613,00 52,163
614,00 52,174
615,00 52,186
616,00 52,217
617,00 52,250
618,00 52,272
619,00 52,288
620,00 52,329
621,00 52,353
622,00 52,452
623,00 52,453
624,00 52,546
625,00 52,573
626,00 52,621
627,00 52,649
628,00 52,717
629,00 52,799
630,00 52,852
631,00 52,845
632,00 52,892
633,00 52,939
634,00 52,987
635,00 52,995
636,00 53,045
637,00 53,120
638,00 53,186
639,00 53,198
640,00 53,219
641,00 53,250
642,00 53,359
643,00 53,425
644,00 53,512
645,00 53,535
646,00 53,606
647,00 53,654
648,00 53,743
649,00 53,802
650,00 53,920
651,00 53,990
652,00 54,084
653,00 54,142
654,00 54,227
655,00 54,334
656,00 54,482
657,00 54,652
658,00 54,770
659,00 54,850
660,00 54,919
661,00 55,087
662,00 55,264
663,00 55,450
664,00 55,610
665,00 55,810
666,00 56,015
667,00 56,201
668,00 56,409
669,00 56,651
670,00 56,874
671,00 57,105
672,00 57,290
673,00 57,521
674,00 57,725
675,00 57,945
676,00 58,213
677,00 58,504
678,00 58,802
679,00 59,056
680,00 59,336
681,00 59,575
682,00 59,811
683,00 59,981
684,00 60,206
685,00 60,484
686,00 60,789
687,00 61,076
688,00 61,365
689,00 61,669
690,00 61,979
691,00 62,273
692,00 62,546
693,00 62,808
694,00 63,047
695,00 63,348
696,00 63,663
697,00 63,992
698,00 64,243
699,00 64,447
700,00 64,685
